Folder: projectInAI/data

Note: data/data.txt
-12.994608695652174 -16.807217391304352 -10.144434782608696 -20.288739130434784 -10.928608695652173 -12.042434782608696 -8.65508695652174 -7.069869565217393 -20.68891304347826 -9.97921739130435 -10.181086956521739 -8.320652173913043 -8.518391304347826 -5.794608695652173 -11.739260869565216 -9.121695652173912 
-12.994608695652174 -16.807217391304352 -10.144434782608696 -20.288739130434784 -10.928608695652173 -12.042434782608696 -8.65508695652174 -7.069869565217393 -20.68891304347826 -9.97921739130435 -10.181086956521739 -8.320652173913043 -8.518391304347826 -5.794608695652173 -11.739260869565216 -9.121695652173912

Note: data/test_data.txt
0.24987999999999996 -0.20620000000000002 0.41472000000000003 0.51044 -0.05016000000000001 -0.25032 0.75788 1.8388800000000003 0.65352 -0.29084 0.11516 -0.58036 0.13492 -0.18988 0.04676 -0.0602 
0.22556 -0.21323999999999999 0.40887999999999997 0.50872 -0.04016 -0.17192 0.07728 0.13156 -0.36164 -0.40544 0.15428 -0.4535600000000001 0.0074399999999999996 -0.03508000000000001 0.042519999999999995 -0.11011999999999998 
0.20446153846153844 -0.21692307692307694 0.4110769230769231 0.5179230769230769 -0.033269230769230766 -0.1196923076923077 -0.04973076923076923 -0.08188461538461539 -0.24469230769230763 -0.3429230769230769 0.10346153846153848 -0.19280769230769235 0.44626923076923075 1.041692307692308 0.5110769230769232 -0.1840384615384615 
0.21107407407407403 -0.2287777777777778 0.3986666666666668 0.4621111111111111 -0.10281481481481484 -0.19974074074074075 1.2456296296296296 1.1054074074074074 -0.2975555555555556 -0.4233333333333334 0.06351851851851852 -0.33448148148148155 0.1738888888888889 -0.1961111111111111 0.023000000000000003 -0.10451851851851852 
0.16644000000000003 -0.2482 0.3965600000000001 0.4696399999999999 -0.0774 -0.18928 0.19164 0.044199999999999996 -0.2466 -0.24304000000000003 0.07308 -0.33936 0.09088000000000002 -0.04288 0.21588000000000002 -0.13936 
0.12310714285714285 -0.25675 0.3955357142857143 0.46985714285714286 -0.05825 -0.16389285714285712 -0.01442857142857143 -0.06957142857142858 -0.17817857142857144 -0.1927142857142857 0.06514285714285714 -0.38753571428571426 0.2176428571428571 0.6730714285714285 0.8199642857142857 -0.1548928571428571 
0.14368 -0.29168 0.35412000000000005 0.36156000000000005 -0.21415999999999996 0.36168 1.51812 0.3733600000000001 -0.26216 -0.15444000000000002 0.08603999999999999 -0.10972 0.23328 -0.17443999999999996 0.01328 -0.14052 
0.09988888888888889 -0.310925925925926 0.3728148148148148 0.4037777777777778 -0.12044444444444447 -0.13125925925925924 0.2881481481481481 -0.009296296296296296 -0.16655555555555554 -0.11288888888888891 0.0877037037037037 -0.1448888888888889 0.17170370370370375 -0.13014814814814815 0.24066666666666667 -0.11333333333333334 
0.03492000000000001 -0.33096 0.36724 0.42196 -0.09147999999999999 -0.17364000000000002 0.00288 -0.06084 -0.10192 -0.07532 0.08768000000000001 -0.16872 0.10383999999999999 0.1408 1.18128 0.11404 
0.09288888888888891 -0.3602962962962962 0.3148148148148148 0.22607407407407407 -0.24344444444444446 1.1254074074074074 1.5002592592592592 0.10177777777777779 -0.1595185185185185 -0.06992592592592593 0.10292592592592592 -0.03362962962962963 0.26725925925925925 -0.14340740740740743 0.035333333333333335 -0.16037037037037039 
0.0621111111111111 -0.3993333333333333 0.3121851851851851 0.3173703703703704 -0.16385185185185183 -0.05611111111111112 0.20077777777777778 -0.059481481481481475 -0.0927777777777778 -0.04285185185185184 0.10166666666666667 -0.04518518518518518 0.2345555555555556 -0.16722222222222224 0.22714814814814815 -0.009333333333333336 
0.06842307692307693 -0.46892307692

Note: data/test_data_copy.txt
0.27548000000000006 -0.18848000000000004 0.4282000000000001 0.5288 -0.0182 -0.14452 0.8174399999999999 2.1343599999999996 6.0888800000000005 4.94624 0.12464 -0.78756 0.20952 -0.16384 0.12007999999999999 -0.012120000000000002 
0.27113636363636373 -0.18486363636363637 0.4208181818181817 0.5261818181818181 -0.009272727272727273 -0.07472727272727274 0.017681818181818187 0.47509090909090906 0.8391363636363636 5.297 0.7029090909090908 -0.2515 -0.10031818181818185 -0.2716363636363637 0.027227272727272732 -0.026409090909090906 
0.26595833333333335 -0.18725 0.41616666666666663 0.5342916666666667 -0.007833333333333333 -0.06154166666666666 -0.07433333333333333 -0.21141666666666667 -0.7550833333333333 0.9318333333333332 0.7109583333333332 3.580416666666667 -0.37212500000000004 -0.18345833333333336 -0.013499999999999998 -0.03841666666666666 
0.2528148148148148 -0.18588888888888885 0.41551851851851856 0.5209999999999999 -0.013000000000000001 -0.06333333333333334 -0.04855555555555557 -0.14122222222222222 -0.35444444444444445 -0.6198518518518519 0.6418518518518518 4.01874074074074 1.8324814814814814 0.9916666666666666 0.06922222222222223 -0.09366666666666668 
0.2532 -0.18748 0.41572000000000003 0.52724 -0.00712 -0.044000000000000004 -0.00656 -0.0642 -0.19244 -0.45547999999999994 0.15999999999999998 3.3251999999999997 3.3971199999999997 2.65476 0.24100000000000002 -0.12748 
0.2575769230769231 -0.20003846153846153 0.4146923076923077 0.5154615384615384 -0.05211538461538461 -0.34507692307692306 2.0726923076923076 2.4708076923076923 2.508 -0.6854615384615386 0.028576923076923076 -0.44930769230769224 0.22284615384615383 -0.15634615384615386 0.0915 -0.0445 
0.24987999999999996 -0.20620000000000002 0.41472000000000003 0.51044 -0.05016000000000001 -0.25032 0.75788 1.8388800000000003 0.65352 -0.29084 0.11516 -0.58036 0.13492 -0.18988 0.04676 -0.0602 
0.22556 -0.21323999999999999 0.40887999999999997 0.50872 -0.04016 -0.17192 0.07728 0.13156 -0.36164 -0.40544 0.15428 -0.4535600000000001 0.0074399999999999996 -0.03508000000000001 0.042519999999999995 -0.11011999999999998 
0.20446153846153844 -0.21692307692307694 0.4110769230769231 0.5179230769230769 -0.033269230769230766 -0.1196923076923077 -0.04973076923076923 -0.08188461538461539 -0.24469230769230763 -0.3429230769230769 0.10346153846153848 -0.19280769230769235 0.44626923076923075 1.041692307692308 0.5110769230769232 -0.1840384615384615 
0.18008333333333335 -0.21975 0.41274999999999995 0.5058333333333332 -0.021875000000000002 -0.08404166666666667 -0.023041666666666665 -0.0595 -0.1396666666666667 -0.19395833333333332 0.03316666666666667 -0.44208333333333333 1.6925833333333333 2.208791666666667 2.5377916666666667 -0.30741666666666667 
0.23423999999999995 -0.21444000000000002 0.40687999999999996 0.4732 -0.13119999999999998 0.10400000000000001 2.8753599999999992 2.7124800000000007 0.26708 -0.5807999999999999 0.050719999999999994 -0.24272 0.2434 -0.15736 0.08 -0.0712 
0.21107407407407403 -0.2287777777777778 0.3986666666666668 0.

Note: README.md
All installations mus be in pyhton 3.7+

Install pyrcn
```
pip install pyrcn
```
Install sklearn
```
pip install -U scikit-learn
```
Install matplotlib
```
pip install -U matplotlib
```

File: raw_data_log_1.txt
Device: PM2003001		2022:09:20    10:42:59,897  (DLL version: 1.20;  Status: HW:v1.02 SW:v1.3 CRC:31ED BATTERY:4170mV ST:2 ERR:0010;  MUX data; S: 92 I:143 R:200.000 C:1.094p F:)
Excitation level, V:	2,00
Voltage Channel Gain:	5
Current Channel Gain:	1
Voltmeter Range, V:	0,6
Ampermeter Range, A:	15,0m
Step Period, ms:	5
R transimp:	200
C transimp:	1,1p
Measurement Table: 	FIXED:  6

2022:09:20    10:42:59,949
		Re, ohm   @frequency, Hz															Im, ohm   @frequency, Hz
Time, s	Mux pos	1k	2k	3k	7k	11k	17k	23k	31k	43k	61k	89k	127k	179k	251k	349k	1k	2k	3k	7k	11k	17k	23k	31k	43k	61k	89k	127k	179k	251k	349k	U, V	I , mA

  0,0000	  2,0000	-24,0018	 59,6021	945,0200	-251,6077	789,0480	703,5404	7704,9219	8988,5513	-45077,0119	334,3569	-5322,6286	-6990,3137	-10921,2394	-8737,9107	-11943,2903	147,6076	-314,6822	-572,7705	1329,6690	-5717,5016	-3818,5079	6057,9594	3780,9500	-13263,0719	5037,7133	8278,4123	788,3774	5086,5437	434,5800	2400,1859	  0,1447	  0,0806
  0,1440	  1,0000	-93,2547	-264,8770	-760,3506	-1903,4750	4324,3515	481,5389	-13099,0331	-9395,7534	6331,8388	11294,1649	9422,0001	11621,0734	11252,8691	15743,5563	16137,0480	-55,8761	-497,2696	-1120,0118	378,1246	-1549,0145	-1813,3947	-6567,8536	-10575,9367	-4195,4610	7167,3235	-10299,1892	-4473,7796	-3178,7983	-10325,8550	-2241,2272	  0,1225	  0,0586
  0,2880	  0,0000	-247,6549	129,2255	108,5054	-1412,6902	-463,8020	540,0534	-7628,8948	-3639,6049	1012,6778	4180,9410	-8357,4234	-9536,6128	-28188,0669	-11499,8408	-16272,2953	-31,9525	-207,5779	-235,1443	2133,5631	-1481,2035	-3416,4318	-12527,9156	-15005,1191	-6784,0306	10074,0706	870,1181	5158,2773	3749,1450	559,7812	1851,4346	  0,0788	  0,0659
  0,4320	  5,0000	167,5833	2842,5641	-1609,4445	2075,0912	10618,0649	73407,9049	18618,5266	33473,2126	17617,6139	25271,7033	32305,3586	31490,6157	28286,9850	38372,4013	36235,9964	299,3883	-356,0051	588,9504	-4018,8301	2712,8131	-57424,9707	11852,7216	-8050,8485	7602,0049	14411,4309	14930,0172	5299,7804	8216,7977	-2427,1437	-4163,9966	  0,3334	  0,0732
  0,5750	  3,0000	318,0489	-547,0295	-1633,2166	5911,9096	3252,2061	4672,9247	5820,8273	12704,5753	15088,6583	30186,4030	19801,7950	27837,4429	28952,7992	27389,7814	27408,7505	115,1544	-556,4970	208,8707	-2809,1339	-9368,9048	2104,7685	-4291,8575	1175,4411	-960,9691	2652,6491	7414,8968	-5517,4549	9038,7793	596,9193	3042,1301	  0,1948	  0,0659
  0,7190	  2,0000	104,5104	-51,8463	625,1565	573,8246	-129,9948	434,9756	35821,1841	-5203,3465	-8055,2907	953,8876	-7252,7877	-8124,5067	-12186,0950	-8563,7501	-10680,5218	146,4973	-322,0354	-321,3110	2036,6570	-2287,7951	-2400,8636	-1985,1433	-5036,2100	957,5485	4765,7831	5015,1382	1277,4395	277,8731	1056,5018	1644,1807	  0,1438	  0,0806
  0,8630	  1,0000	-355,6240	-155,2038	-427,6077	 32,3100	-1110,8614	9739,9048	4620,0511	4261,8652	9331,9217	-869,9000	13053,2113	13918,9943	23643,1861	19718,7998	15817,0358	250,6032	-361,9823	152,3381	-1608,8481	-2830,1769	8582,2693	-971,1439	-6909,7127	-5452,1411	104043,5432	-11413,3943	-3949,5969	558,4025	854,9271	-3899,4178	  0,1225	  0,0586
  1,0070	  0,0000	-37,5297	-28,2210	-415,6273	-660,7666	 46,6231	853,6989	-6762,5368	-9155,3210	-15480,3349	-6214,7077	-13314,3574	-10378,3366	-52020,0472	-18443,5357	-14123,9212	-101,8567	-217,5449	-693,7355	734,0541	-1385,4521	-2493,0071	-8979,2608	-14868,4996	-25473,7092	14457,7346	1413,9664	4421,4099	15356,5227	1554,4761	3946,1272	  0,0782	  0,0659
  1,1500	  4,0000	-237,1976	540,7772	921,0173	3996,5514	-8363,8702	-5606,9402	6374,7892	-17661,2766	-29374,8556	-18707,4516	-22221,6821	-22883,9456	-24326,5389	-42205,7201	-32508,1020	390,4489	 96,0132	998,5962	7053,8594	-1549,1034	5806,7538	9931,4168	21389,3967	32728,0508	31357,2740	16985,0575	11134,0019	18955,6755	5657,3297	-21909,1096	  0,1626	  0,0586
  1,2940	  3,0000	1032,5922	-197,3710	-243,1707	-7947,6866	7196,7073	7508,7187	25410,0024	7641,0367	10306,1808	25370,4752	16959,6279	21147,1719	25641,2449	28892,8454	33076,5774	-147,4979	679,6908	-1623,3783	3759,6726	-11327,8570	-6947,4074	-10125,8064	-3068,2749	3357,7486	-5367,6874	6926,6232	320,8287	7655,0099	3553,3807	6688,9092	  0,1884	  0,0659
  1,4380	  2,0000	-234,3859	407,1829	483,1305	-383,8833	-4972,2842	1923,0295	7550,9244	7229,4247	-7275,4818	1456,2116	-6322,3520	-7065,8622	-9613,2255	-8136,6317	-11263,7522	-764,4065	-723,2548	193,4976	1028,3361	846,4038	-1893,6037	6430,8012	5648,0550	1628,9472	7121,7419	7676,2548	2798,1352	5773,9509	513,2262	-303,6270	  0,1436	  0,0806
  1,5820	  1,0000	570,8338	928,7041	345,6364	2263,3364	2552,0118	2431,1526	4071,4332	8535,2720	6555,2223	7347,1561	9884,4446	11322,4136	13279,2169	20757,5355	13425,7337	-549,9978	701,2845	240,8929	-142,7867	-1992,9826	-2982,9120	-3900,4429	839,2326	-8230,8897	-10873,3403	-12524,5130	-11584,5850	-2344,1884	-94,7956	727,9138	  0,1225	  0,0586
  1,7250	  5,0000	592,5963	110,5156	5186,1049	2547,5768	-12982,9834	-26915,3715	15936,8237	21659,9240	21994,5163	17246,5184	31378,0243	33347,8731	37363,8910	38323,6604	39773,4347	541,4447	-1850,9749	-13577,7124	-6399,6778	  5,0619	49659,4155	2952,3241	-5624,4447	16695,7394	5949,5564	21732,1327	5373,6462	18330,7599	-1029,5911	-722,4808	  0,3343	  0,0659
  1,8690	  4,0000	 69,8336	463,7201	-1337,9745	4488,7578	3468,5993	-5383,3527	-8411,2314	-19501,4430	-378,6368	-17887,9826	-27952,9370	-15949,0647	-22817,3251	-29382,7759	-46172,1696	412,0058	263,6503	2525,9633	786,8658	3095,5549	677,9154	8877,7119	-682,6850	37588,9758	-9746,3222	21426,8986	26521,9695	-1801,0086	3142,9574	-11007,7620	  0,1585	  0,0586
  2,0130	  3,0000	263,0858	1107,6477	643,9539	439,5655	-11153,3650	-9577,2022	4533,4679	10225,9222	12745,2711	14107,1689	21332,5096	20219,1580	22482,8603	24884,1927	25642,8991	497,3044	2915,5741	3073,4295	-2089,9518	1341,1518	-6109,1812	3258,7372	-1265,9582	-4081,1294	8670,2850	-2103,5785	3202,2689	4597,5073	-225,5432	-816,6695	  0,1931	  0,0659
  2,1570	  2,0000	-36,5329	572,1703	416,7744	-1504,8782	-1356,9906	2030,6508	37824,7634	9894,2887	-9651,9122	5013,2812	-5525,3855	-8972,2325	-11185,9296	-10482,7205	-11253,3461	-196,3478	-518,0175	-208,5721	1098,1119	-1932,3345	-1905,5904	-41590,1515	5480,5740	-5611,1957	6427,1970	5584,9956	1869,5203	5909,4453	1233,9013	729,9146	  0,1436	  0,0806
  2,3000	  0,0000	 -5,4950	 62,9137	162,9835	263,6587	-1280,4358	1375,6149	1526,9805	10188,7816	1820,9257	-10477,5140	-7066,0773	-12312,0334	-17138,1169	-16386,8396	-14315,0775	-107,2431	-194,0819	-219,7619	1584,7912	-602,2353	-2758,3438	-4049,3207	-13298,7854	-6113,9456	20899,8914	8861,0945	7358,1368	3009,2782	951,7478	981,9657	  0,0776	  0,0659
  2,4440	  5,0000	529,6717	-468,1383	-5458,4090	178,2731	4289,2438	13998,0275	12719,0243	12317,2624	12307,2125	25256,0503	28585,6848	34588,6360	43543,1301	35879,9428	36434,5135	190,6297	-525,1135	-24,7924	-2884,2081	-7778,6851	-7049,8742	16194,7372	-4853,0966	8746,2775	14024,5325	18635,0246	-458,2826	5695,7648	-3520,0929	403,3534	  0,3313	  0,0659
  2,5880	  4,0000	122,1098	443,5978	-503,3144	2339,9983	-49226,7749	1039,0010	-22825,8214	-22684,7589	-13462,5275	58924,0533	-21738,1968	-70271,6957	-40366,5223	-32385,8642	-25535,5742	258,3900	113,0441	1358,4914	-424,8319	5043,8830	3994,4402	14104,3412	6341,8552	11461,4327	43655,4232	11714,4496	29527,0860	194,7639	5288,5486	-195,4648	  0,1600	  0,0586
  2,7320	  3,0000	326,5737	-2346,9658	-689,1825	1000,9517	7355,5878	4763,8684	7816,7676	29390,9404	10874,7600	14389,3628	21640,6786	21747,6252	25676,0264	26006,1595	24780,4133	 68,0172	1763,2199	-693,3526	-1823,2208	686,0505	-7525,5008	2153,6269	-12816,3642	784,8600	5603,9205	8369,2086	5302,7321	341,7628	1138,8604	-18,1578	  0,1966	  0,0659
  2,8750	  1,0000	-33,7550	-52,9257	796,5842	2486,1802	1181,3730	2805,5741	4688,5885	1378,2773	4123,9302	8361,4137	9498,5838	9877,6234	11858,3247	14825,0557	15040,5606	-208,9927	-376,2118	914,5080	-450,0137	-468,5066	1591,5890	-5014,9631	-3645,2683	-21368,5674	1621,6994	-3109,5839	-6772,1452	133,3260	-4102,5246	-3636,0379	  0,1225	  0,0586
  3,0190	  0,0000	-64,4394	-28,3323	700,3033	-72,6724	-756,0837	1866,1478	179,3963	3373,8242	4574,1484	11989,6115	-22048,1149	-13584,9912	-17414,3797	-13576,3389	-16651,1257	-26,5785	-107,4708	972,8195	1902,2564	-1260,2462	-2578,6176	-7702,9518	4667,8308	-6755,7868	2052,6670	5000,6709	6848,5608	7700,4434	-99,1848	1271,9591	  0,0785	  0,0732
  3,1630	  5,0000	476,0370	-1617,8625	-2449,8170	-407,3002	-11184,2120	28509,9712	11847,3181	14809,4107	39829,2229	24028,7279	25752,5965	36512,6674	33400,3539	40307,2144	37374,9985	144,0525	222,5947	9915,3396	-7313,0068	418,0802	30071,0280	9835,1204	3407,1027	12664,6352	9168,4992	19217,3222	-458,5695	15144,0007	430,3531	275,2076	  0,3360	  0,0732
  3,3070	  4,0000	1348,9127	 68,0820	394,9858	-594,4401	-5814,0690	13509,8388	15820,1539	-10024,2178	-20715,4721	1010,3474	-30097,2608	-17807,9862	-24011,8479	-44967,8387	-27239,7530	832,3712	426,9823	-1441,9174	4178,6017	22436,2966	19757,8513	1162,3621	17304,4561	-196,5276	-28736,4022	3468,7135	17374,5604	-5662,2069	-12411,2776	3426,9414	  0,1564	  0,0586
  3,4500	  2,0000	490,2159	-137,0221	-283,6357	624,4110	-862,2600	1808,8629	-16460,7493	1014,0776	-9139,3736	1325,0030	-5384,7496	-8103,0928	-13239,5653	-9090,6645	-11326,5752	432,8593	-133,8766	608,4025	1543,2522	-1077,6150	-1544,4226	13699,7634	5392,8851	-10643,9065	6217,4326	6288,7414	1253,7781	7416,1479	1256,0022	-94,3024	  0,1453	  0,0806
  3,5940	  1,0000	131,3014	-308,1073	886,7537	1546,7199	-1117,7382	932,7179	-3866,4469	2808,5797	8001,8590	9472,2127	16291,0123	14822,9365	14782,7721	13129,1571	13353,6646	-133,3844	-130,1194	-65,1489	2051,5354	-1697,0131	-9735,2472	-4206,7540	-15851,2424	-5238,3322	-7684,7795	-8612,1664	-8705,8889	-344,0557	-8469,9061	-6563,0445	  0,1233	  0,0586
  3,7380	  0,0000	-251,4086	-467,6048	-419,3519	819,6824	-720,0979	1622,4396	2768,3153	-2040,2255	25440,5674	-11537,8735	-13061,8691	-14964,7013	-14782,4580	-10577,5067	-17654,9322	-149,3716	-89,3717	-369,8481	-1759,3580	-1024,4165	-915,1742	-4107,2144	-8201,7800	-15895,9346	10511,1006	11777,4918	7063,9313	1637,4109	-153,2731	3468,3959	  0,0782	  0,0732
  3,8820	  5,0000	455,0689	-1917,1224	-1725,2453	3883,8121	-10332,2925	7592,8973	10597,1066	16065,5360	31251,3342	21775,9001	25101,4526	29261,6542	30840,9002	34029,0890	38138,9697	497,7608	-166,1698	119,8117	-7145,4380	1478,0764	-14938,9751	-4492,8202	23582,2824	12280,4602	14783,7463	26274,8906	3854,6177	10264,8515	1376,0219	576,6049	  0,3293	  0,0732
  4,0250	  3,0000	-509,2781	-1253,0868	-801,9059	3152,3835	749,0465	5991,7373	10538,7614	9441,0993	18146,6682	17101,5183	29701,6399	18205,1845	25401,4808	23621,4436	26815,9594	-1207,7147	510,4462	-584,1782	-3726,0848	-9916,1450	-3456,5799	4949,1417	-3254,6826	6133,1436	5326,5514	6296,8995	1588,9017	7064,7104	3132,5404	 52,9499	  0,1896	  0,0659
  4,0990	  0,0000	-418,3463	-102,7440	-802,5247	1295,1509	-1189,7936	2552,8649	848,7166	8127,8493	2608,7441	6042,9998	-10702,0909	-15318,7444	-18560,2323	-12111,3030	-15613,0087	-266,9863	-186,2558	356,2921	-1504,0609	-2132,4711	-1300,8566	-3394,7138	-8329,8121	-7378,5013	13917,4298	7302,2641	4923,7079	6694,2706	3499,1425	1425,1245	  0,0782	  0,0659